wavelength in nm	Intensity in au
628.656067	934.0394736842105
630.008057	992.6640625
631.3599	982.6921119592876
632.7118	902.5494791666666
634.06366	799.6750700280112
635.415466	770.2532188841202
636.7672	839.0087336244542
638.119	968.6732283464567
639.4707	1076.2810126582278
640.8223	1107.9760638297873
642.17395	1061.8701657458564
643.5255	987.4297520661157
644.877	970.6194225721785
646.2286	1046.823033707865
647.579956	1248.337950138504
648.9314	1490.7272727272727
650.282837	1648.3508287292818
651.634155	1723.8057742782153
652.9855	1696.5367847411444
654.336731	1656.5093333333334
655.688	1661.712676056338
657.0391	1797.3808219178081
658.390259	2024.708222811671
659.741333	2228.997175141243
661.0924	2377.2697547683924
662.4435	2332.5071225071224
663.794434	2176.598853868195
665.1454	1987.840909090909
666.4962	1902.8551532033425
667.8471	2004.299711815562
669.1979	2312.8255813953488
670.548645	2715.5689149560117
671.8994	3074.093023255814
673.250061	3237.702064896755
674.600769	3208.2754491017963
675.951355	3055.8816568047337
677.3019	2916.3018292682927
678.6524	2977.5592705167173
680.002869	3315.8957055214723
681.3533	3867.003076923077
682.7037	4472.559270516717
684.054	4889.174454828661
685.4043	5070.641744548287
686.7546	4896.384615384615
688.1048	4518.444
689.454956	4180.772635814889
690.805054	4138.67012987013
692.1551	4420.325481798715
693.5051	5118.966990291262
694.8551	5849.532388663968
696.2051	6452.3966480446925
697.554932	6523.6
698.9048	6468.537254901961
700.2546	6013.549323017408
701.6044	5395.81930184805
702.954041	5071.16544117647
704.3037	5111.040307101727
705.6533	5611.134969325153
707.0029	6521.893238434163
708.3524	7290.640873015873
709.7019	7913.135826771653
711.051331	8170.788759689923
712.4007	8024.149402390438
713.75	7593.686868686868
715.0993	7134.3759842519685
716.448547	6814.229645093946
717.797668	7027.173228346457
719.146851	7575.045929018789
720.4959	8434.269709543569
721.845	9230.454356846472
723.194	9799.508333333333
724.5429	10061.949392712551
725.8918	9951.43392504931
727.2407	9569.25250501002
728.5895	9018.82098765432
729.9381	8607.72463768116
731.2869	8504.224742268041
732.6355	8788.338809034907
733.984131	9331.828092243186
735.332642	10036.729896907216
736.681152	10630.817622950819
738.0296	10932.777301927195
739.3779	11067.133056133056
740.7263	10926.558333333332
742.0746	10651.92094017094
743.4228	10423.235042735043
744.771057	10286.62091503268
746.119141	10393.678111587982
747.467163	10660.225806451614
748.8153	11057.051391862955
750.1632	11450.826464208243
751.5111	11794.875
752.8591	12020.13695652174
754.2069	12133.832258064516
755.5546	12129.164859002169
756.902344	12005.339826839827
758.249939	11713.11884057971
759.5976	11716.726862302483
760.9452	11632.558891454966
762.292664	11619.16704288939
763.6401	11492.038812785388
764.9875	11313.41339491917
766.3348	11038.935034802784
767.682068	10667.105633802817
769.0293	10296.307875894989
770.376465	9979.534772182255
771.7236	9798.169014084508
773.0707	9797.365789473684
774.417664	9866.300268096515
775.7646	10031.932432432432
777.1115	10188.65934065934
778.4583	10306.522427440634
779.805054	10218.685185185184
781.151855	9947.169398907105
782.498535	9566.571808510638
783.8451	9012.016759776536
785.19165	8545.101063829787
786.5382	8084.570902394107
787.8846	7945.4145658263305
789.231	8032.711111111111
790.5773	8418.318059299192
791.9235	8956.974431818182
793.269836	9614.232931726907
794.615967	10175.785515320335
795.962036	10575.066852367689
797.308044	10733.539509536784
798.654	10398.154929577464
799.999939	10229.254285714285
801.3458	9723.730245231607
802.6916	9050.409742120344
804.037354	8440.05540166205
805.383057	7929.666666666667
806.728638	7627.90395480226
808.074158	7431.701587301587
809.419739	7717.243401759531
810.765137	7998.787172011662
812.110535	8318.605113636364
813.4558	8550.124653739613
814.8011	8553.752976190477
816.14624	8495.266288951841
817.491455	8163.801960784313
818.8365	7788.346041055718
820.181458	7325.6
821.5265	6841.0
822.871338	6408.128279883382
824.2161	6122.244776119403
825.561	6055.774011299435
826.90564	6118.047337278106
828.250244	6339.246913580247
829.594849	6701.394202898551
830.9394	6965.326747720364
832.2838	7324.702941176471
833.6282	7543.160818713451
834.972534	7540.536434108527
836.3167	7561.348643006263
837.661	7435.873529411765
839.0051	7107.383757961784
840.3491	6932.388059701492
841.6932	6637.1547987616095
843.0371	6423.451965065502
844.381	6273.094801223242
845.724854	6173.311728395061
847.068542	6100.162754303599
848.4122	6115.338898163606
849.755859	6266.669811320755
851.099365	6315.307522123894
852.4429	6417.320241691843
853.7863	6445.861111111111
855.129639	6433.944099378882
856.4729	6408.333333333333
857.816162	6344.961797752809
859.1593	6286.053797468355
860.5023	6210.774193548387
861.8454	6137.016077170418
863.188354	6038.1940639269405
864.53125	5957.986754966887
865.8741	5906.142857142857
867.2168	5834.058064516129
868.559448	5713.486754966887
869.9021	5580.643769968051
871.2446	5416.5133779264215
872.5871	5252.046181172292
873.929565	5122.263788968825
875.271851	4944.556552962298
876.614136	4804.094373865699
877.95636	4716.644283121597
879.2985	4672.639798488665
880.6405	4614.530973451328
881.982544	4614.643274853801
883.324463	4642.578767123287
884.6663	4622.693203883495
886.0081	4615.15291750503
887.3498	4579.463276836158
888.691467	4509.503105590062
890.0331	4374.097156398104
891.3746	4257.739837398374
892.715942	4117.768796992481
894.0574	3893.6515463917526
895.3986	3676.923566878981
896.7398	3471.9
898.081055	3305.0958605664487
899.422058	3215.9749034749034
900.763062	3116.2139830508477
902.104	3102.348214285714
903.4449	3121.607966457023
904.785645	3183.076677316294
906.126343	3218.574660633484
907.467	3298.0041407867493
908.807556	3305.787081339713
910.1481	3310.4800884955753
911.488464	3259.36214953271
912.8288	3221.892703862661
914.1691	3076.4591836734694
915.509338	2897.48417721519
916.8494	2712.1528662420383
918.189453	2530.076595744681
919.5294	2317.8929663608565
920.8694	2156.186119873817
922.209167	2057.5992217898834
923.54895	1950.1870967741936
924.8886	1936.7056962025317
926.2282	1957.7171717171718
927.5677	1998.0151057401813
928.907166	2061.615
930.2466	2154.3347639484978
931.5859	2215.793258426966
932.925049	2254.838202247191
934.2642	2291.6860986547085
935.603333	2272.915254237288
936.942261	2222.8761904761905
938.28125	2154.1975806451615
939.620056	2035.4012738853503
940.9588	1918.5502183406113
942.297546	1790.1223628691982
943.6361	1661.0815047021943
944.9747	1568.5261324041812
946.3132	1473.3396226415093
947.6515	1423.3186119873817
948.989746	1387.087542087542
950.328	1377.1347826086956
951.6661	1387.7448979591836
953.00415	1374.2974683544303
954.3422	1374.2191780821918
955.680054	1448.982683982684
957.0179	1455.25
958.355652	1478.1832797427653
959.6933	1465.9098712446353
961.0308	1428.563063063063
962.3684	1335.672268907563
963.70575	1262.774647887324
965.043152	1213.3094170403588
966.380432	1140.0448979591836
967.7176	1055.8712871287128
969.0547	975.0857142857143
970.3917	922.4340425531915
971.728638	863.4196721311475
